colour_images,type,colour,bw_images,origionalcolour,trials_4.thisRepN,trials_4.thisTrialN,trials_4.thisN,trials_4.thisIndex,trials_2.thisRepN,trials_2.thisTrialN,trials_2.thisN,trials_2.thisIndex,trials.thisRepN,trials.thisTrialN,trials.thisN,trials.thisIndex,text_2.started,fixation_2.started,image_2.started,fixation_2.stopped,image_2.stopped,text.started,fixation.started,image.started,Redbutton.started,Blue_button.started,Yellow_button.started,Green_button.started,fixation.stopped,image.stopped,Redbutton.numClicks,Redbutton.timesOn,Redbutton.timesOff,Blue_button.numClicks,Blue_button.timesOn,Blue_button.timesOff,Yellow_button.numClicks,Yellow_button.timesOn,Yellow_button.timesOff,Green_button.numClicks,Green_button.timesOn,Green_button.timesOff,text_4.started,text_4.stopped,participant,session,date,expName,psychopyVersion,frameRate,
C:\Users\bhvpe\Desktop\20 images\colour_furniture_bluetable.png,furniture,blue,,,0,0,0,0,0,0,0,0,,,,,79.42356200003996,84.45683460007422,84.7099469001405,84.76104749995284,86.72372930007987,,,,,,,,,,,,,,,,,,,,,,,,1pfinal,001,2023-11-27_19h20.13.419,final experiment brightness,2023.1.3,60.16517746118973,
C:\Users\bhvpe\Desktop\20 images\colour_instrument_bluetrumpet.png,instrument,blue,,,0,0,0,0,0,1,1,4,,,,,,86.72372930007987,87.02369679999538,87.04033200000413,,,,,,,,,,,,,,,,,,,,,,,,,1pfinal,001,2023-11-27_19h20.13.419,final experiment brightness,2023.1.3,60.16517746118973,
C:\Users\bhvpe\Desktop\20 images\colour_instrument_redharp.png,instrument,red,,,0,0,0,0,0,2,2,6,,,,,,89.02560910000466,89.32349160010926,89.34037739993073,,,,,,,,,,,,,,,,,,,,,,,,,1pfinal,001,2023-11-27_19h20.13.419,final experiment brightness,2023.1.3,60.16517746118973,
C:\Users\bhvpe\Desktop\20 images\colour_vehical_bluebus.png,vehical,blue,,,0,0,0,0,0,3,3,12,,,,,,91.3258843999356,91.62378669995815,91.6403725000564,,,,,,,,,,,,,,,,,,,,,,,,,1pfinal,001,2023-11-27_19h20.13.419,final experiment brightness,2023.1.3,60.16517746118973,
C:\Users\bhvpe\Desktop\20 images\colour_ktools_redfork.png,ktools,red,,,0,0,0,0,0,4,4,10,,,,,,93.6901302000042,93.92353400005959,93.99021870014258,,,,,,,,,,,,,,,,,,,,,,,,,1pfinal,001,2023-11-27_19h20.13.419,final experiment brightness,2023.1.3,60.16517746118973,
C:\Users\bhvpe\Desktop\20 images\colour_instrument_greenguitar.png,instrument,green,,,0,0,0,0,0,5,5,5,,,,,,95.94027710007504,96.22357290005311,96.24038700014353,,,,,,,,,,,,,,,,,,,,,,,,,1pfinal,001,2023-11-27_19h20.13.419,final experiment brightness,2023.1.3,60.16517746118973,
C:\Users\bhvpe\Desktop\20 images\colour_vehical_redcycle.png,vehical,red,,,0,0,0,0,0,6,6,14,,,,,,98.24013900011778,98.52359479991719,98.54011399997398,,,,,,,,,,,,,,,,,,,,,,,,,1pfinal,001,2023-11-27_19h20.13.419,final experiment brightness,2023.1.3,60.16517746118973,
C:\Users\bhvpe\Desktop\20 images\colour_furniture_redbed.png,furniture,red,,,0,0,0,0,0,7,7,2,,,,,,100.52395760011859,100.8235774000641,100.84016730007716,,,,,,,,,,,,,,,,,,,,,,,,,1pfinal,001,2023-11-27_19h20.13.419,final experiment brightness,2023.1.3,60.16517746118973,
C:\Users\bhvpe\Desktop\20 images\colour_vehical_greencar.png,vehical,green,,,0,0,0,0,0,8,8,13,,,,,,102.82425480009988,103.12356179999188,103.1401668000035,,,,,,,,,,,,,,,,,,,,,,,,,1pfinal,001,2023-11-27_19h20.13.419,final experiment brightness,2023.1.3,60.16517746118973,
C:\Users\bhvpe\Desktop\20 images\colour_furniture_yellowchair.png,furniture,yellow,,,0,0,0,0,0,9,9,3,,,,,,105.124522899976,105.42343680001795,105.44025949994102,,,,,,,,,,,,,,,,,,,,,,,,,1pfinal,001,2023-11-27_19h20.13.419,final experiment brightness,2023.1.3,60.16517746118973,
C:\Users\bhvpe\Desktop\20 images\colour_ktools_yellowkettle.png,ktools,yellow,,,0,0,0,0,0,10,10,11,,,,,,107.44023340009153,107.72356469999067,107.74027119996026,,,,,,,,,,,,,,,,,,,,,,,,,1pfinal,001,2023-11-27_19h20.13.419,final experiment brightness,2023.1.3,60.16517746118973,
C:\Users\bhvpe\Desktop\20 images\colour_instrument_yellowpiano.png,instrument,yellow,,,0,0,0,0,0,11,11,7,,,,,,109.72607950004749,110.02338899997994,110.0400463999249,,,,,,,,,,,,,,,,,,,,,,,,,1pfinal,001,2023-11-27_19h20.13.419,final experiment brightness,2023.1.3,60.16517746118973,
C:\Users\bhvpe\Desktop\20 images\colour_vehical_yellowplane.png,vehical,yellow,,,0,0,0,0,0,12,12,15,,,,,,112.02455279999413,112.32353450008668,112.34012420009822,,,,,,,,,,,,,,,,,,,,,,,,,1pfinal,001,2023-11-27_19h20.13.419,final experiment brightness,2023.1.3,60.16517746118973,
C:\Users\bhvpe\Desktop\20 images\colour_ktools_bluepan.png,ktools,blue,,,0,0,0,0,0,13,13,8,,,,,,114.33998890011571,114.62334530008957,114.64009770005941,,,,,,,,,,,,,,,,,,,,,,,,,1pfinal,001,2023-11-27_19h20.13.419,final experiment brightness,2023.1.3,60.16517746118973,
C:\Users\bhvpe\Desktop\20 images\colour_ktools_greenknife.png,ktools,green,,,0,0,0,0,0,14,14,9,,,,,,116.64000030001625,116.92336160014383,116.9403623000253,,,,,,,,,,,,,,,,,,,,,,,,,1pfinal,001,2023-11-27_19h20.13.419,final experiment brightness,2023.1.3,60.16517746118973,
C:\Users\bhvpe\Desktop\20 images\colour_furniture_greensofa.png,furniture,green,,,0,0,0,0,0,15,15,1,,,,,,118.9252522001043,119.22324580000713,119.23993770009838,,,,,,,,,,,,,,,,,,,,,,,,,1pfinal,001,2023-11-27_19h20.13.419,final experiment brightness,2023.1.3,60.16517746118973,
,instrument,bw,C:\Users\bhvpe\Desktop\20 images\bw_instrument_trumpet.png,blue,0,0,0,0,,,,,0,0,0,7,,,,,,121.22322149993852,126.27321880008094,126.52474620006979,126.52474620006979,126.52474620006979,126.52474620006979,126.52474620006979,126.58986319997348,129.55652659991756,0,,,1,[3.5692686000838876],[3.569279700051993],0,,,0,,,,,1pfinal,001,2023-11-27_19h20.13.419,final experiment brightness,2023.1.3,60.16517746118973,
,ktools,bw,C:\Users\bhvpe\Desktop\20 images\bw_ktools_knife.png,green,0,0,0,0,,,,,0,1,1,10,,,,,,,130.09168610000052,130.40649960003793,130.40649960003793,130.40649960003793,130.40649960003793,130.40649960003793,130.44000250007957,,0,,,0,,,0,,,1,[2.015550100011751],[2.0155629999935627],,,1pfinal,001,2023-11-27_19h20.13.419,final experiment brightness,2023.1.3,60.16517746118973,
,vehical,bw,C:\Users\bhvpe\Desktop\20 images\bw_vehical_car.png,green,0,0,0,0,,,,,0,2,2,13,,,,,,,132.40657799993642,132.72310580010526,132.72310580010526,132.72310580010526,132.72310580010526,132.72310580010526,132.75661000004038,135.75656330003403,1,[3.4170419999863952],[3.4170528000686318],0,,,0,,,0,,,,,1pfinal,001,2023-11-27_19h20.13.419,final experiment brightness,2023.1.3,60.16517746118973,
,furniture,bw,C:\Users\bhvpe\Desktop\20 images\bw_furniture_table.png,blue,0,0,0,0,,,,,0,3,3,3,,,,,,,136.12311369995587,136.43973150011152,136.43973150011152,136.43973150011152,136.43973150011152,136.43973150011152,136.47317299991846,,1,[2.418084600009024],[2.418095299974084],0,,,0,,,0,,,,,1pfinal,001,2023-11-27_19h20.13.419,final experiment brightness,2023.1.3,60.16517746118973,
,instrument,bw,C:\Users\bhvpe\Desktop\20 images\bw_instrument_piano.png,yellow,0,0,0,0,,,,,0,4,4,6,,,,,,,138.8399853000883,139.1564086000435,139.1564086000435,139.1564086000435,139.1564086000435,139.1564086000435,139.18974780011922,,0,,,0,,,1,[2.751834399998188],[2.7518454000819474],0,,,,,1pfinal,001,2023-11-27_19h20.13.419,final experiment brightness,2023.1.3,60.16517746118973,
,furniture,bw,C:\Users\bhvpe\Desktop\20 images\bw_furniture_chair.png,yellow,0,0,0,0,,,,,0,5,5,1,,,,,,,141.88968940009363,142.2063762000762,142.2063762000762,142.2063762000762,142.2063762000762,142.2063762000762,142.23972419998609,,0,,,0,,,0,,,1,[2.3186910999938846],[2.318702300079167],,,1pfinal,001,2023-11-27_19h20.13.419,final experiment brightness,2023.1.3,60.16517746118973,
,ktools,bw,C:\Users\bhvpe\Desktop\20 images\bw_ktools_pan.png,blue,0,0,0,0,,,,,0,6,6,11,,,,,,,144.50636740005575,144.82298470009118,144.82298470009118,144.82298470009118,144.82298470009118,144.82298470009118,144.85642830003053,,0,,,1,[2.417274500010535],[2.417284899856895],0,,,0,,,,,1pfinal,001,2023-11-27_19h20.13.419,final experiment brightness,2023.1.3,60.16517746118973,
,vehical,bw,C:\Users\bhvpe\Desktop\20 images\bw_vehical_cycle.png,red,0,0,0,0,,,,,0,7,7,14,,,,,,,147.22293499996886,147.5397113999352,147.5397113999352,147.5397113999352,147.5397113999352,147.5397113999352,147.57302130013704,,1,[2.0167178998235613],[2.0167288000229746],0,,,0,,,0,,,,,1pfinal,001,2023-11-27_19h20.13.419,final experiment brightness,2023.1.3,60.16517746118973,
,instrument,bw,C:\Users\bhvpe\Desktop\20 images\bw_instrument_guitar.png,green,0,0,0,0,,,,,0,8,8,4,,,,,,,149.53959410008974,149.856598299928,149.856598299928,149.856598299928,149.856598299928,149.856598299928,149.89062470011413,,0,,,0,,,0,,,1,[2.084408199880272],[2.0844195000827312],,,1pfinal,001,2023-11-27_19h20.13.419,final experiment brightness,2023.1.3,60.16517746118973,
,vehical,bw,C:\Users\bhvpe\Desktop\20 images\bw_vehical_plane.png,yellow,0,0,0,0,,,,,0,9,9,15,,,,,,,151.92304280004464,152.23965830006637,152.23965830006637,152.23965830006637,152.23965830006637,152.23965830006637,152.27293929993175,,0,,,1,[2.3501836999785155],[2.350194200174883],0,,,0,,,,,1pfinal,001,2023-11-27_19h20.13.419,final experiment brightness,2023.1.3,60.16517746118973,
,instrument,bw,C:\Users\bhvpe\Desktop\20 images\bw_instrument_harp.png,red,0,0,0,0,,,,,0,10,10,5,,,,,,,154.57346899993718,154.88998610014096,154.88998610014096,154.88998610014096,154.88998610014096,154.88998610014096,154.92318839998916,,1,[2.0178119000047445],[2.0178221999667585],0,,,0,,,0,,,,,1pfinal,001,2023-11-27_19h20.13.419,final experiment brightness,2023.1.3,60.16517746118973,
,ktools,bw,C:\Users\bhvpe\Desktop\20 images\bw_ktools_fork.png,red,0,0,0,0,,,,,0,11,11,8,,,,,,,156.93961769994348,157.25620990013704,157.25620990013704,157.25620990013704,157.25620990013704,157.25620990013704,157.2897183999885,,0,,,0,,,0,,,1,[1.8510157000273466],[1.8510267999954522],,,1pfinal,001,2023-11-27_19h20.13.419,final experiment brightness,2023.1.3,60.16517746118973,
,ktools,bw,C:\Users\bhvpe\Desktop\20 images\bw_ktools_kettle.png,yellow,0,0,0,0,,,,,0,12,12,9,,,,,,,159.08963770000264,159.40648659993894,159.40648659993894,159.40648659993894,159.40648659993894,159.40648659993894,159.43949500005692,,0,,,0,,,1,[2.217580599943176],[2.2175930999219418],0,,,,,1pfinal,001,2023-11-27_19h20.13.419,final experiment brightness,2023.1.3,60.16517746118973,
,vehical,bw,C:\Users\bhvpe\Desktop\20 images\bw_vehical_bus.png,blue,0,0,0,0,,,,,0,13,13,12,,,,,,,161.6060975000728,161.92288869991899,161.92288869991899,161.92288869991899,161.92288869991899,161.92288869991899,161.95620279992,,0,,,1,[1.7501727000344545],[1.7501829999964684],0,,,0,,,,,1pfinal,001,2023-11-27_19h20.13.419,final experiment brightness,2023.1.3,60.16517746118973,
,furniture,bw,C:\Users\bhvpe\Desktop\20 images\bw_furniture_sofa.png,green,0,0,0,0,,,,,0,14,14,2,,,,,,,163.6561773000285,163.9728808000218,163.9728808000218,163.9728808000218,163.9728808000218,163.9728808000218,164.00623419997282,,1,[1.7167130000889301],[1.716723500052467],0,,,0,,,0,,,,,1pfinal,001,2023-11-27_19h20.13.419,final experiment brightness,2023.1.3,60.16517746118973,
,furniture,bw,C:\Users\bhvpe\Desktop\20 images\bw_furniture_bed.png,red,0,0,0,0,,,,,0,15,15,0,,,,,,,165.672929600114,165.989471900044,165.989471900044,165.989471900044,165.989471900044,165.989471900044,166.0227884000633,,1,[1.1836722998414189],[1.1836827998049557],0,,,0,,,0,,,,,1pfinal,001,2023-11-27_19h20.13.419,final experiment brightness,2023.1.3,60.16517746118973,
,,,,,0,0,0,0,,,,,,,,,,,,,,,,,,,,,,,,,,,,,,,,,,,167.13953440007754,170.1394253000617,1pfinal,001,2023-11-27_19h20.13.419,final experiment brightness,2023.1.3,60.16517746118973,
