colour_images,type,colour,bw_images,origionalcolour,trials_4.thisRepN,trials_4.thisTrialN,trials_4.thisN,trials_4.thisIndex,trials_2.thisRepN,trials_2.thisTrialN,trials_2.thisN,trials_2.thisIndex,trials.thisRepN,trials.thisTrialN,trials.thisN,trials.thisIndex,text_2.started,fixation_2.started,image_2.started,fixation_2.stopped,text.started,fixation.started,image.started,Redbutton.started,Blue_button.started,Yellow_button.started,Green_button.started,fixation.stopped,image.stopped,Redbutton.numClicks,Redbutton.timesOn,Redbutton.timesOff,Blue_button.numClicks,Blue_button.timesOn,Blue_button.timesOff,Yellow_button.numClicks,Yellow_button.timesOn,Yellow_button.timesOff,Green_button.numClicks,Green_button.timesOn,Green_button.timesOff,text_4.started,text_4.stopped,participant,session,date,expName,psychopyVersion,frameRate,
C:\Users\bhvpe\Desktop\20 images\colour_ktools_bluepan.png,ktools,blue,,,0,0,0,0,0,0,0,8,,,,,152.685614899965,157.71951159997843,157.98514020000584,158.0349708001595,,,,,,,,,,,,,,,,,,,,,,,,2pfinal,001,2023-11-27_20h55.09.815,final experiment brightness,2023.1.3,59.719461833422635,
C:\Users\bhvpe\Desktop\20 images\colour_furniture_bluetable.png,furniture,blue,,,0,0,0,0,0,1,1,0,,,,,,159.98660720000044,160.28473159996793,160.30150169995613,,,,,,,,,,,,,,,,,,,,,,,,2pfinal,001,2023-11-27_20h55.09.815,final experiment brightness,2023.1.3,59.719461833422635,
C:\Users\bhvpe\Desktop\20 images\colour_instrument_redharp.png,instrument,red,,,0,0,0,0,0,2,2,6,,,,,,162.28518680017442,162.58494230010547,162.60163870011456,,,,,,,,,,,,,,,,,,,,,,,,2pfinal,001,2023-11-27_20h55.09.815,final experiment brightness,2023.1.3,59.719461833422635,
C:\Users\bhvpe\Desktop\20 images\colour_vehical_bluebus.png,vehical,blue,,,0,0,0,0,0,3,3,12,,,,,,164.58717960002832,164.88471710006706,164.90154130011797,,,,,,,,,,,,,,,,,,,,,,,,2pfinal,001,2023-11-27_20h55.09.815,final experiment brightness,2023.1.3,59.719461833422635,
C:\Users\bhvpe\Desktop\20 images\colour_furniture_redbed.png,furniture,red,,,0,0,0,0,0,4,4,2,,,,,,166.8861066000536,167.1846650999505,167.20148589997552,,,,,,,,,,,,,,,,,,,,,,,,2pfinal,001,2023-11-27_20h55.09.815,final experiment brightness,2023.1.3,59.719461833422635,
C:\Users\bhvpe\Desktop\20 images\colour_furniture_yellowchair.png,furniture,yellow,,,0,0,0,0,0,5,5,3,,,,,,169.1868263001088,169.4847876999993,169.50144230015576,,,,,,,,,,,,,,,,,,,,,,,,2pfinal,001,2023-11-27_20h55.09.815,final experiment brightness,2023.1.3,59.719461833422635,
C:\Users\bhvpe\Desktop\20 images\colour_furniture_greensofa.png,furniture,green,,,0,0,0,0,0,6,6,1,,,,,,171.48638890008442,171.80155510012992,171.8181022000499,,,,,,,,,,,,,,,,,,,,,,,,2pfinal,001,2023-11-27_20h55.09.815,final experiment brightness,2023.1.3,59.719461833422635,
C:\Users\bhvpe\Desktop\20 images\colour_vehical_yellowplane.png,vehical,yellow,,,0,0,0,0,0,7,7,15,,,,,,173.8014919999987,174.08453939994797,174.10132830007933,,,,,,,,,,,,,,,,,,,,,,,,2pfinal,001,2023-11-27_20h55.09.815,final experiment brightness,2023.1.3,59.719461833422635,
C:\Users\bhvpe\Desktop\20 images\colour_ktools_redfork.png,ktools,red,,,0,0,0,0,0,8,8,10,,,,,,176.10143100004643,176.38466520002112,176.4012667001225,,,,,,,,,,,,,,,,,,,,,,,,2pfinal,001,2023-11-27_20h55.09.815,final experiment brightness,2023.1.3,59.719461833422635,
C:\Users\bhvpe\Desktop\20 images\colour_instrument_yellowpiano.png,instrument,yellow,,,0,0,0,0,0,9,9,7,,,,,,178.40120030008256,178.68455070001073,178.7013722001575,,,,,,,,,,,,,,,,,,,,,,,,2pfinal,001,2023-11-27_20h55.09.815,final experiment brightness,2023.1.3,59.719461833422635,
C:\Users\bhvpe\Desktop\20 images\colour_ktools_greenknife.png,ktools,green,,,0,0,0,0,0,10,10,9,,,,,,180.70140360016376,180.98499829997309,181.00151920015924,,,,,,,,,,,,,,,,,,,,,,,,2pfinal,001,2023-11-27_20h55.09.815,final experiment brightness,2023.1.3,59.719461833422635,
C:\Users\bhvpe\Desktop\20 images\colour_vehical_redcycle.png,vehical,red,,,0,0,0,0,0,11,11,14,,,,,,183.00155080016702,183.28487100009806,183.30173720000312,,,,,,,,,,,,,,,,,,,,,,,,2pfinal,001,2023-11-27_20h55.09.815,final experiment brightness,2023.1.3,59.719461833422635,
C:\Users\bhvpe\Desktop\20 images\colour_ktools_yellowkettle.png,ktools,yellow,,,0,0,0,0,0,12,12,11,,,,,,185.2860559001565,185.5843730000779,185.60154930013232,,,,,,,,,,,,,,,,,,,,,,,,2pfinal,001,2023-11-27_20h55.09.815,final experiment brightness,2023.1.3,59.719461833422635,
C:\Users\bhvpe\Desktop\20 images\colour_instrument_bluetrumpet.png,instrument,blue,,,0,0,0,0,0,13,13,4,,,,,,187.60135899996385,187.88480600016192,187.90124820009805,,,,,,,,,,,,,,,,,,,,,,,,2pfinal,001,2023-11-27_20h55.09.815,final experiment brightness,2023.1.3,59.719461833422635,
C:\Users\bhvpe\Desktop\20 images\colour_vehical_greencar.png,vehical,green,,,0,0,0,0,0,14,14,13,,,,,,189.88687249994837,190.1850058999844,190.20147790014744,,,,,,,,,,,,,,,,,,,,,,,,2pfinal,001,2023-11-27_20h55.09.815,final experiment brightness,2023.1.3,59.719461833422635,
C:\Users\bhvpe\Desktop\20 images\colour_instrument_greenguitar.png,instrument,green,,,0,0,0,0,0,15,15,5,,,,,,192.18598640011624,192.48467510007322,192.50120729999617,,,,,,,,,,,,,,,,,,,,,,,,2pfinal,001,2023-11-27_20h55.09.815,final experiment brightness,2023.1.3,59.719461833422635,
,ktools,bw,C:\Users\bhvpe\Desktop\20 images\bw_ktools_knife.png,green,0,0,0,0,,,,,0,0,0,10,,,,,194.48444410017692,199.53449910017662,199.78772460017353,199.78772460017353,199.78772460017353,199.78772460017353,199.78772460017353,199.8511245001573,202.83445379999466,1,[3.3530701000709087],[3.353082000045106],0,,,0,,,0,,,,,2pfinal,001,2023-11-27_20h55.09.815,final experiment brightness,2023.1.3,59.719461833422635,
,vehical,bw,C:\Users\bhvpe\Desktop\20 images\bw_vehical_cycle.png,red,0,0,0,0,,,,,0,1,1,14,,,,,,203.13529759994708,203.45123650017194,203.45123650017194,203.45123650017194,203.45123650017194,203.45123650017194,203.48429910000414,,1,[1.2803762999828905],[1.2803868998307735],0,,,0,,,0,,,,,2pfinal,001,2023-11-27_20h55.09.815,final experiment brightness,2023.1.3,59.719461833422635,
,vehical,bw,C:\Users\bhvpe\Desktop\20 images\bw_vehical_plane.png,yellow,0,0,0,0,,,,,0,2,2,15,,,,,,204.71775169996545,205.0348176001571,205.0348176001571,205.0348176001571,205.0348176001571,205.0348176001571,205.06776250014082,,0,,,0,,,1,[1.5851527000777423],[1.5851644999347627],0,,,,,2pfinal,001,2023-11-27_20h55.09.815,final experiment brightness,2023.1.3,59.719461833422635,
,vehical,bw,C:\Users\bhvpe\Desktop\20 images\bw_vehical_bus.png,blue,0,0,0,0,,,,,0,3,3,12,,,,,,206.60099619999528,206.9177222000435,206.9177222000435,206.9177222000435,206.9177222000435,206.9177222000435,206.95124890003353,,0,,,0,,,0,,,1,[1.4513884000480175],[1.4513995999004692],,,2pfinal,001,2023-11-27_20h55.09.815,final experiment brightness,2023.1.3,59.719461833422635,
,ktools,bw,C:\Users\bhvpe\Desktop\20 images\bw_ktools_pan.png,blue,0,0,0,0,,,,,0,4,4,11,,,,,,208.3511056001298,208.66765379998833,208.66765379998833,208.66765379998833,208.66765379998833,208.66765379998833,208.70150070008822,,0,,,1,[1.9507178999483585],[1.9507290998008102],0,,,0,,,,,2pfinal,001,2023-11-27_20h55.09.815,final experiment brightness,2023.1.3,59.719461833422635,
,ktools,bw,C:\Users\bhvpe\Desktop\20 images\bw_ktools_fork.png,red,0,0,0,0,,,,,0,5,5,8,,,,,,210.60079890000634,210.91765350010246,210.91765350010246,210.91765350010246,210.91765350010246,210.91765350010246,210.9509163000621,,1,[2.4185341000556946],[2.4185448000207543],0,,,0,,,0,,,,,2pfinal,001,2023-11-27_20h55.09.815,final experiment brightness,2023.1.3,59.719461833422635,
,instrument,bw,C:\Users\bhvpe\Desktop\20 images\bw_instrument_trumpet.png,blue,0,0,0,0,,,,,0,6,6,7,,,,,,213.3176712000277,213.63436170015484,213.63436170015484,213.63436170015484,213.63436170015484,213.63436170015484,213.6682531000115,,0,,,0,,,1,[2.017641399987042],[2.0176522999536246],0,,,,,2pfinal,001,2023-11-27_20h55.09.815,final experiment brightness,2023.1.3,59.719461833422635,
,furniture,bw,C:\Users\bhvpe\Desktop\20 images\bw_furniture_bed.png,red,0,0,0,0,,,,,0,7,7,0,,,,,,215.63423250010237,215.95117510017008,215.95117510017008,215.95117510017008,215.95117510017008,215.95117510017008,215.9845965001732,,1,[2.118129399837926],[2.118145699845627],0,,,0,,,0,,,,,2pfinal,001,2023-11-27_20h55.09.815,final experiment brightness,2023.1.3,59.719461833422635,
,furniture,bw,C:\Users\bhvpe\Desktop\20 images\bw_furniture_sofa.png,green,0,0,0,0,,,,,0,8,8,2,,,,,,218.0511329001747,218.36770449997857,218.36770449997857,218.36770449997857,218.36770449997857,218.36770449997857,218.40100420010276,,0,,,0,,,0,,,1,[1.4518953999504447],[1.4519080999307334],,,2pfinal,001,2023-11-27_20h55.09.815,final experiment brightness,2023.1.3,59.719461833422635,
,furniture,bw,C:\Users\bhvpe\Desktop\20 images\bw_furniture_table.png,blue,0,0,0,0,,,,,0,9,9,3,,,,,,219.80087479995564,220.1175184000749,220.1175184000749,220.1175184000749,220.1175184000749,220.1175184000749,220.15118980011903,,0,,,0,,,1,[1.5863973000086844],[1.58640839997679],0,,,,,2pfinal,001,2023-11-27_20h55.09.815,final experiment brightness,2023.1.3,59.719461833422635,
,instrument,bw,C:\Users\bhvpe\Desktop\20 images\bw_instrument_guitar.png,green,0,0,0,0,,,,,0,10,10,4,,,,,,221.68428499996662,222.00082570011728,222.00082570011728,222.00082570011728,222.00082570011728,222.00082570011728,222.03449270012788,,0,,,0,,,1,[1.584871199913323],[1.5848817999940366],0,,,,,2pfinal,001,2023-11-27_20h55.09.815,final experiment brightness,2023.1.3,59.719461833422635,
,instrument,bw,C:\Users\bhvpe\Desktop\20 images\bw_instrument_harp.png,red,0,0,0,0,,,,,0,11,11,5,,,,,,223.56903000012971,223.88480360014364,223.88480360014364,223.88480360014364,223.88480360014364,223.88480360014364,223.91772980010137,,0,,,1,[1.8814097000285983],[1.8814207999967039],0,,,0,,,,,2pfinal,001,2023-11-27_20h55.09.815,final experiment brightness,2023.1.3,59.719461833422635,
,furniture,bw,C:\Users\bhvpe\Desktop\20 images\bw_furniture_chair.png,yellow,0,0,0,0,,,,,0,12,12,1,,,,,,225.7508533000946,226.06889240001328,226.06889240001328,226.06889240001328,226.06889240001328,226.06889240001328,226.10104410001077,,1,[1.7509063000325114],[1.7509168998803943],0,,,0,,,0,,,,,2pfinal,001,2023-11-27_20h55.09.815,final experiment brightness,2023.1.3,59.719461833422635,
,vehical,bw,C:\Users\bhvpe\Desktop\20 images\bw_vehical_car.png,green,0,0,0,0,,,,,0,13,13,13,,,,,,227.80147770000622,228.11759310006164,228.11759310006164,228.11759310006164,228.11759310006164,228.11759310006164,228.15103449998423,,0,,,0,,,0,,,1,[1.668359600007534],[1.6683714999817312],,,2pfinal,001,2023-11-27_20h55.09.815,final experiment brightness,2023.1.3,59.719461833422635,
,ktools,bw,C:\Users\bhvpe\Desktop\20 images\bw_ktools_kettle.png,yellow,0,0,0,0,,,,,0,14,14,9,,,,,,229.76747300010175,230.10083340015262,230.10083340015262,230.10083340015262,230.10083340015262,230.10083340015262,230.13412649999373,,0,,,0,,,0,,,1,[2.117513299919665],[2.117524500004947],,,2pfinal,001,2023-11-27_20h55.09.815,final experiment brightness,2023.1.3,59.719461833422635,
,instrument,bw,C:\Users\bhvpe\Desktop\20 images\bw_instrument_piano.png,yellow,0,0,0,0,,,,,0,15,15,6,,,,,,232.184206899954,232.50089980009943,232.50089980009943,232.50089980009943,232.50089980009943,232.50089980009943,232.5341413000133,,0,,,1,[1.0841488000005484],[1.0841594999656081],0,,,0,,,,,2pfinal,001,2023-11-27_20h55.09.815,final experiment brightness,2023.1.3,59.719461833422635,
,,,,,0,0,0,0,,,,,,,,,,,,,,,,,,,,,,,,,,,,,,,,,,233.5505570000969,236.5508695000317,2pfinal,001,2023-11-27_20h55.09.815,final experiment brightness,2023.1.3,59.719461833422635,
