colour_images,type,colour,bw_images,origionalcolour,trials_4.thisRepN,trials_4.thisTrialN,trials_4.thisN,trials_4.thisIndex,trials_2.thisRepN,trials_2.thisTrialN,trials_2.thisN,trials_2.thisIndex,trials.thisRepN,trials.thisTrialN,trials.thisN,trials.thisIndex,text_2.started,text_2.stopped,fixation_2.started,image_2.started,fixation_2.stopped,image_2.stopped,text.started,fixation.started,image.started,Redbutton.started,Blue_button.started,Yellow_button.started,Green_button.started,fixation.stopped,Redbutton.numClicks,Redbutton.timesOn,Redbutton.timesOff,Blue_button.numClicks,Blue_button.timesOn,Blue_button.timesOff,Yellow_button.numClicks,Yellow_button.timesOn,Yellow_button.timesOff,Green_button.numClicks,Green_button.timesOn,Green_button.timesOff,image.stopped,text_4.started,text_4.stopped,participant,session,date,expName,psychopyVersion,frameRate,
C:\Users\bhvpe\Desktop\20 images\colour_furniture_yellowchair.png,furniture,yellow,,,0,0,0,0,0,0,0,3,,,,,43.865723999915645,48.89757809997536,48.89757809997536,49.1650393998716,49.19785919995047,51.181140899891034,,,,,,,,,,,,,,,,,,,,,,,,5pfinal1,001,2023-11-27_21h52.29.970,final experiment brightness,2023.1.3,59.661919761030234,
C:\Users\bhvpe\Desktop\20 images\colour_ktools_redfork.png,ktools,red,,,0,0,0,0,0,1,1,10,,,,,,,51.181140899891034,51.48093089996837,51.49792200000957,,,,,,,,,,,,,,,,,,,,,,,,,5pfinal1,001,2023-11-27_21h52.29.970,final experiment brightness,2023.1.3,59.661919761030234,
C:\Users\bhvpe\Desktop\20 images\colour_furniture_bluetable.png,furniture,blue,,,0,0,0,0,0,2,2,0,,,,,,,53.480773699935526,53.78103840001859,53.797948699910194,,,,,,,,,,,,,,,,,,,,,,,,,5pfinal1,001,2023-11-27_21h52.29.970,final experiment brightness,2023.1.3,59.661919761030234,
C:\Users\bhvpe\Desktop\20 images\colour_instrument_bluetrumpet.png,instrument,blue,,,0,0,0,0,0,3,3,4,,,,,,,55.78366159996949,56.08107049996033,56.09791429992765,,,,,,,,,,,,,,,,,,,,,,,,,5pfinal1,001,2023-11-27_21h52.29.970,final experiment brightness,2023.1.3,59.661919761030234,
C:\Users\bhvpe\Desktop\20 images\colour_instrument_redharp.png,instrument,red,,,0,0,0,0,0,4,4,6,,,,,,,58.08102039992809,58.38105299999006,58.39782469999045,,,,,,,,,,,,,,,,,,,,,,,,,5pfinal1,001,2023-11-27_21h52.29.970,final experiment brightness,2023.1.3,59.661919761030234,
C:\Users\bhvpe\Desktop\20 images\colour_ktools_bluepan.png,ktools,blue,,,0,0,0,0,0,5,5,8,,,,,,,60.38215769990347,60.680992499925196,60.697574499994516,,,,,,,,,,,,,,,,,,,,,,,,,5pfinal1,001,2023-11-27_21h52.29.970,final experiment brightness,2023.1.3,59.661919761030234,
C:\Users\bhvpe\Desktop\20 images\colour_furniture_redbed.png,furniture,red,,,0,0,0,0,0,6,6,2,,,,,,,62.680988899897784,62.98104380001314,62.9986906000413,,,,,,,,,,,,,,,,,,,,,,,,,5pfinal1,001,2023-11-27_21h52.29.970,final experiment brightness,2023.1.3,59.661919761030234,
C:\Users\bhvpe\Desktop\20 images\colour_vehical_redcycle.png,vehical,red,,,0,0,0,0,0,7,7,14,,,,,,,64.99763379991055,65.2809875998646,65.2976350998506,,,,,,,,,,,,,,,,,,,,,,,,,5pfinal1,001,2023-11-27_21h52.29.970,final experiment brightness,2023.1.3,59.661919761030234,
C:\Users\bhvpe\Desktop\20 images\colour_vehical_greencar.png,vehical,green,,,0,0,0,0,0,8,8,13,,,,,,,67.28282399987802,67.59756170003675,67.6143222998362,,,,,,,,,,,,,,,,,,,,,,,,,5pfinal1,001,2023-11-27_21h52.29.970,final experiment brightness,2023.1.3,59.661919761030234,
C:\Users\bhvpe\Desktop\20 images\colour_vehical_yellowplane.png,vehical,yellow,,,0,0,0,0,0,9,9,15,,,,,,,69.58095450000837,69.88100509997457,69.89761129999533,,,,,,,,,,,,,,,,,,,,,,,,,5pfinal1,001,2023-11-27_21h52.29.970,final experiment brightness,2023.1.3,59.661919761030234,
C:\Users\bhvpe\Desktop\20 images\colour_furniture_greensofa.png,furniture,green,,,0,0,0,0,0,10,10,1,,,,,,,71.88075220002793,72.18099420005456,72.19761079992168,,,,,,,,,,,,,,,,,,,,,,,,,5pfinal1,001,2023-11-27_21h52.29.970,final experiment brightness,2023.1.3,59.661919761030234,
C:\Users\bhvpe\Desktop\20 images\colour_ktools_yellowkettle.png,ktools,yellow,,,0,0,0,0,0,11,11,11,,,,,,,74.18069329997525,74.48080789996311,74.49744819989428,,,,,,,,,,,,,,,,,,,,,,,,,5pfinal1,001,2023-11-27_21h52.29.970,final experiment brightness,2023.1.3,59.661919761030234,
C:\Users\bhvpe\Desktop\20 images\colour_vehical_bluebus.png,vehical,blue,,,0,0,0,0,0,12,12,12,,,,,,,76.48211589991115,76.781119100051,76.7974874000065,,,,,,,,,,,,,,,,,,,,,,,,,5pfinal1,001,2023-11-27_21h52.29.970,final experiment brightness,2023.1.3,59.661919761030234,
C:\Users\bhvpe\Desktop\20 images\colour_instrument_yellowpiano.png,instrument,yellow,,,0,0,0,0,0,13,13,7,,,,,,,78.78261339990422,79.08070180006325,79.09743039985187,,,,,,,,,,,,,,,,,,,,,,,,,5pfinal1,001,2023-11-27_21h52.29.970,final experiment brightness,2023.1.3,59.661919761030234,
C:\Users\bhvpe\Desktop\20 images\colour_ktools_greenknife.png,ktools,green,,,0,0,0,0,0,14,14,9,,,,,,,81.08289629989304,81.38055979995988,81.3976616000291,,,,,,,,,,,,,,,,,,,,,,,,,5pfinal1,001,2023-11-27_21h52.29.970,final experiment brightness,2023.1.3,59.661919761030234,
C:\Users\bhvpe\Desktop\20 images\colour_instrument_greenguitar.png,instrument,green,,,0,0,0,0,0,15,15,5,,,,,,,83.38072309992276,83.68071820004843,83.69731649989262,,,,,,,,,,,,,,,,,,,,,,,,,5pfinal1,001,2023-11-27_21h52.29.970,final experiment brightness,2023.1.3,59.661919761030234,
,instrument,bw,C:\Users\bhvpe\Desktop\20 images\bw_instrument_piano.png,yellow,0,0,0,0,,,,,0,0,0,6,,,,,,,85.6809765000362,90.71396859991364,90.98183720000088,90.98183720000088,90.98183720000088,90.98183720000088,90.98183720000088,91.04730400000699,0,,,0,,,1,[2.901109700091183],[2.9011210999451578],0,,,,,,5pfinal1,001,2023-11-27_21h52.29.970,final experiment brightness,2023.1.3,59.661919761030234,
,furniture,bw,C:\Users\bhvpe\Desktop\20 images\bw_furniture_bed.png,red,0,0,0,0,,,,,0,1,1,0,,,,,,,,93.8805859000422,94.19813139992766,94.19813139992766,94.19813139992766,94.19813139992766,94.19813139992766,94.23084850003943,1,[1.8502803000155836],[1.8502908998634666],0,,,0,,,0,,,,,,5pfinal1,001,2023-11-27_21h52.29.970,final experiment brightness,2023.1.3,59.661919761030234,
,instrument,bw,C:\Users\bhvpe\Desktop\20 images\bw_instrument_guitar.png,green,0,0,0,0,,,,,0,2,2,4,,,,,,,,96.03069909987971,96.34750239993446,96.34750239993446,96.34750239993446,96.34750239993446,96.34750239993446,96.38066919986159,0,,,0,,,0,,,1,[2.718240600079298],[2.7182521999347955],,,,5pfinal1,001,2023-11-27_21h52.29.970,final experiment brightness,2023.1.3,59.661919761030234,
,vehical,bw,C:\Users\bhvpe\Desktop\20 images\bw_vehical_cycle.png,red,0,0,0,0,,,,,0,3,3,14,,,,,,,,99.04729190003127,99.3641406998504,99.3641406998504,99.3641406998504,99.3641406998504,99.3641406998504,99.39718999993056,1,[2.9840137001592666],[2.9840242001228034],0,,,0,,,0,,,,,,5pfinal1,001,2023-11-27_21h52.29.970,final experiment brightness,2023.1.3,59.661919761030234,
,ktools,bw,C:\Users\bhvpe\Desktop\20 images\bw_ktools_fork.png,red,0,0,0,0,,,,,0,4,4,8,,,,,,,,102.33111689984798,102.66393280006014,102.66393280006014,102.66393280006014,102.66393280006014,102.66393280006014,102.6972991998773,1,[1.8670504000037909],[1.8670606000814587],0,,,0,,,0,,,,,,5pfinal1,001,2023-11-27_21h52.29.970,final experiment brightness,2023.1.3,59.661919761030234,
,instrument,bw,C:\Users\bhvpe\Desktop\20 images\bw_instrument_harp.png,red,0,0,0,0,,,,,0,5,5,5,,,,,,,,104.49687459995039,104.8138305998873,104.8138305998873,104.8138305998873,104.8138305998873,104.8138305998873,104.84720159997232,0,,,1,[2.6836871998384595],[2.683698100037873],0,,,0,,,,,,5pfinal1,001,2023-11-27_21h52.29.970,final experiment brightness,2023.1.3,59.661919761030234,
,furniture,bw,C:\Users\bhvpe\Desktop\20 images\bw_furniture_table.png,blue,0,0,0,0,,,,,0,6,6,3,,,,,,,,107.48041459987871,107.79725209996104,107.79725209996104,107.79725209996104,107.79725209996104,107.79725209996104,107.83070879988372,0,,,1,[2.317818900104612],[2.317829699954018],0,,,0,,,,,,5pfinal1,001,2023-11-27_21h52.29.970,final experiment brightness,2023.1.3,59.661919761030234,
,ktools,bw,C:\Users\bhvpe\Desktop\20 images\bw_ktools_pan.png,blue,0,0,0,0,,,,,0,7,7,11,,,,,,,,110.09701250004582,110.4141603000462,110.4141603000462,110.4141603000462,110.4141603000462,110.4141603000462,110.44730499992147,1,[1.5844608000479639],[1.5844711000099778],0,,,0,,,0,,,,,,5pfinal1,001,2023-11-27_21h52.29.970,final experiment brightness,2023.1.3,59.661919761030234,
,ktools,bw,C:\Users\bhvpe\Desktop\20 images\bw_ktools_kettle.png,yellow,0,0,0,0,,,,,0,8,8,9,,,,,,,,111.98055229987949,112.29722439986654,112.29722439986654,112.29722439986654,112.29722439986654,112.29722439986654,112.33039729995653,0,,,0,,,1,[1.8008962001185864],[1.8009069999679923],0,,,,,,5pfinal1,001,2023-11-27_21h52.29.970,final experiment brightness,2023.1.3,59.661919761030234,
,vehical,bw,C:\Users\bhvpe\Desktop\20 images\bw_vehical_plane.png,yellow,0,0,0,0,,,,,0,9,9,15,,,,,,,,114.08081709989347,114.39725739997812,114.39725739997812,114.39725739997812,114.39725739997812,114.39725739997812,114.43063919991255,0,,,0,,,1,[0.9509187000803649],[0.9509292999282479],0,,,,,,5pfinal1,001,2023-11-27_21h52.29.970,final experiment brightness,2023.1.3,59.661919761030234,
,furniture,bw,C:\Users\bhvpe\Desktop\20 images\bw_furniture_sofa.png,green,0,0,0,0,,,,,0,10,10,2,,,,,,,,115.33034959994256,115.64737749984488,115.64737749984488,115.64737749984488,115.64737749984488,115.64737749984488,115.6805624999106,0,,,0,,,0,,,1,[1.7846742998808622],[1.7846856999676675],,,,5pfinal1,001,2023-11-27_21h52.29.970,final experiment brightness,2023.1.3,59.661919761030234,
,vehical,bw,C:\Users\bhvpe\Desktop\20 images\bw_vehical_bus.png,blue,0,0,0,0,,,,,0,11,11,12,,,,,,,,117.41433089994825,117.7305328999646,117.7305328999646,117.7305328999646,117.7305328999646,117.7305328999646,117.76378749986179,0,,,0,,,1,[2.4856771999038756],[2.4856890998780727],0,,,,,,5pfinal1,001,2023-11-27_21h52.29.970,final experiment brightness,2023.1.3,59.661919761030234,
,ktools,bw,C:\Users\bhvpe\Desktop\20 images\bw_ktools_knife.png,green,0,0,0,0,,,,,0,12,12,10,,,,,,,,120.19671809999272,120.51363739999942,120.51363739999942,120.51363739999942,120.51363739999942,120.51363739999942,120.54698999994434,0,,,0,,,0,,,1,[3.4521763001102954],[3.4521886000875384],123.54708050005138,,,5pfinal1,001,2023-11-27_21h52.29.970,final experiment brightness,2023.1.3,59.661919761030234,
,furniture,bw,C:\Users\bhvpe\Desktop\20 images\bw_furniture_chair.png,yellow,0,0,0,0,,,,,0,13,13,1,,,,,,,,123.947260200046,124.2636279000435,124.2636279000435,124.2636279000435,124.2636279000435,124.2636279000435,124.29693929990754,0,,,0,,,1,[2.018352899933234],[2.018363199895248],0,,,,,,5pfinal1,001,2023-11-27_21h52.29.970,final experiment brightness,2023.1.3,59.661919761030234,
,vehical,bw,C:\Users\bhvpe\Desktop\20 images\bw_vehical_car.png,green,0,0,0,0,,,,,0,14,14,13,,,,,,,,126.26414370001294,126.58042700006627,126.58042700006627,126.58042700006627,126.58042700006627,126.58042700006627,126.61373859993182,0,,,0,,,0,,,1,[1.8841912001371384],[1.8842019999865443],,,,5pfinal1,001,2023-11-27_21h52.29.970,final experiment brightness,2023.1.3,59.661919761030234,
,instrument,bw,C:\Users\bhvpe\Desktop\20 images\bw_instrument_trumpet.png,blue,0,0,0,0,,,,,0,15,15,7,,,,,,,,128.44714459986426,128.76359250000678,128.76359250000678,128.76359250000678,128.76359250000678,128.76359250000678,128.79692870005965,0,,,1,[1.9339588999282569],[1.9339699998963624],0,,,0,,,,,,5pfinal1,001,2023-11-27_21h52.29.970,final experiment brightness,2023.1.3,59.661919761030234,
,,,,,0,0,0,0,,,,,,,,,,,,,,,,,,,,,,,,,,,,,,,,,,,,130.66375990002416,133.66364789986983,5pfinal1,001,2023-11-27_21h52.29.970,final experiment brightness,2023.1.3,59.661919761030234,
